<?xml version="1.0" encoding="UTF-8"?>

<Bundle xmlns="http://hl7.org/fhir">
  <id value="DocumentContainingOriginalRepresentationAsPdfA"/>
  <meta>
    <profile value="http://fhir.ch/ig/ch-core/StructureDefinition/ch-core-document"/>
    <profile value="http://fhir.ch/ig/ch-core/StructureDefinition/ch-core-document-epr"/>
  </meta>
  <identifier>
    <system value="urn:ietf:rfc:3986"/>
    <value value="urn:uuid:11778932-3d19-486b-afe6-e32a1165c978"/>
  </identifier>
  <type value="document"/>
  <timestamp value="2018-02-06T16:57:00+01:00"/>
  <entry>
    <fullUrl value="urn:uuid:991633bb-f27c-484c-9822-334f1b635e75"/>
    <resource>
      <Composition>
        <id value="991633bb-f27c-484c-9822-334f1b635e75"/>
        <language value="en-US"/>
        <extension url="http://fhir.ch/ig/ch-core/StructureDefinition/ch-ext-epr-informationrecipient">
          <valueReference>
            <reference value="urn:uuid:e118f753-caaa-4696-991a-b20a796ce782"/>
          </valueReference>
        </extension>
        <extension url="http://fhir.ch/ig/ch-core/StructureDefinition/ch-ext-epr-dataenterer">
          <extension url="enterer">
            <valueReference>
              <reference value="urn:uuid:cac33923-b081-4060-bd57-46ee35dd5a33"/>
            </valueReference>
          </extension>
          <extension url="http://fhir.ch/ig/ch-core/StructureDefinition/ch-ext-epr-time">
            <valueDateTime value="2017-10-03T13:15:00+01:00"/>
          </extension>
        </extension>
        <identifier>
          <system value="urn:ietf:rfc:3986"/>
          <value value="urn:uuid:11778932-3d19-486b-afe6-e32a1165c978"/>
        </identifier>
        <status value="final"/>
        <type>
          <coding>
            <system value="http://loinc.org"/>
            <code value="28616-1"/>
            <display value="Physician Transfer note"/>
          </coding>
          <coding>
            <system value="http://snomed.info/sct"/>
            <code value="371535009"/>
            <display value="Transfer summary report"/>
          </coding>
        </type>
        <subject>
          <reference value="urn:uuid:d80b05d6-2b3b-443e-9797-e4ac8615f7ce"/>
        </subject>
        <date value="2018-02-06T16:57:00+01:00"/>
        <author>
          <extension url="http://fhir.ch/ig/ch-core/StructureDefinition/ch-ext-epr-time">
            <valueDateTime value="2017-10-03T16:09:00+01:00"/>
          </extension>
          <reference value="urn:uuid:5e5d0948-61b0-4555-9a8f-40bacdc0cb8c"/>
        </author>
        <author>
          <reference value="urn:uuid:74f3642a-835f-407a-a427-5e403fe8b0b3"/>
        </author>
        <title value="Transfer note for radiological diagnostics"/>
        <confidentiality value="N">
          <extension url="http://fhir.ch/ig/ch-core/StructureDefinition/ch-ext-epr-confidentialitycode">
            <valueCodeableConcept>
              <coding>
                <system value="http://snomed.info/sct"/>
                <code value="17621005"/>
                <display value="Normal (qualifier value)"/>
              </coding>
            </valueCodeableConcept>
          </extension>
        </confidentiality>
        <attester>
          <mode value="legal"/>
          <time value="2017-10-03"/>
          <party>
            <reference value="urn:uuid:7347db10-d4b3-4cc4-be86-dc2224fdf030"/>
          </party>
        </attester>
        <custodian>
          <reference value="urn:uuid:28c3d63b-47d4-4f5f-9bbe-afd3a19cefc2"/>
        </custodian>
        <section>
          <title value="Ordered diagnostics"/>
          <text>
            <status value="generated"/><div xmlns="http://www.w3.org/1999/xhtml"><span>
							The patient is awaiting your invitation.<br/></span><span style="font-style: italic">
							Specification of the desired examination<br/></span></div>
          </text>
        </section>
        <section>
          <title value="Urgency / preferred date"/>
          <text>
            <status value="generated"/><div xmlns="http://www.w3.org/1999/xhtml"><span style="font-style: italic">
							Information on the preferred date
						</span></div>
          </text>
        </section>
        <section>
          <title value="Question"/>
          <text>
            <status value="generated"/><div xmlns="http://www.w3.org/1999/xhtml"><span style="font-style: italic">
							Reason for the examination and information on the current conditions
						</span></div>
          </text>
        </section>
        <section>
          <title value="Information about the patient"/>
          <text>
            <status value="generated"/><div xmlns="http://www.w3.org/1999/xhtml"><span style="font-style: italic">
							Successful preliminary examinations<br/>
							Diagnostic copy - receiver<br/></span></div>
          </text>
        </section>
        <section>
          <title value="Clinical information"/>
          <text>
            <status value="generated"/><div xmlns="http://www.w3.org/1999/xhtml"><span style="font-style: italic">
							Description of the current conditions<br/>
							Pregnancy (yes / no)<br/>
							Laboratory results (Quick / Tc, creatinine)<br/>
							Known allergies<br/></span></div>
          </text>
        </section>
        <section>
          <title value="Original representation"/>
          <code>
            <coding>
              <system value="http://loinc.org"/>
              <code value="55108-5"/>
              <display value="Clinical presentation Document"/>
            </coding>
          </code>
          <text>
            <status value="generated"/>
            <div xmlns="http://www.w3.org/1999/xhtml">Representation of the original view: <span idref="8f304c87-ed20-4e9a-b928-db4116eb6594">PDF</span></div>
          </text>
          <entry>
            <reference value="urn:uuid:8f304c87-ed20-4e9a-b928-db4116eb6594"/>
            <type value="Binary"/>
          </entry>
        </section>
      </Composition>
    </resource>
  </entry>
  <entry>
    <fullUrl value="urn:uuid:d80b05d6-2b3b-443e-9797-e4ac8615f7ce"/>
    <resource>
      <Patient>
        <id value="d80b05d6-2b3b-443e-9797-e4ac8615f7ce"/>
        <identifier>
          <type>
            <coding>
              <system value="http://terminology.hl7.org/CodeSystem/v2-0203"/>
              <code value="MR"/>
            </coding>
          </type>
          <system value="urn:oid:2.999.1.2.3.4"/>
          <value value="8733"/>
        </identifier>
        <name>
          <use value="official"/>
          <family value="DOE"/>
          <given value="John"/>
        </name>
        <telecom>
          <system value="phone"/>
          <value value="+41.32.685.12.34"/>
          <use value="home"/>
        </telecom>
        <telecom>
          <system value="phone"/>
          <value value="+41.32.123.77.88"/>
          <use value="work"/>
        </telecom>
        <telecom>
          <system value="email"/>
          <value value="john.doe@sampledomain.ch"/>
          <use value="work"/>
        </telecom>
        <gender value="male"/>
        <birthDate value="1948-06-11"/>
        <address>
          <use value="home"/>
          <line value="suffering avenue"/>
          <line value="10"/>
          <city value="Specimentown"/>
          <postalCode value="9876"/>
          <country value="CH"/>
        </address>
        <managingOrganization>
          <reference value="urn:uuid:c1a98d0c-802b-4cce-b922-93eee325cc14"/>
        </managingOrganization>
      </Patient>
    </resource>
  </entry>
  <entry>
    <fullUrl value="urn:uuid:c1a98d0c-802b-4cce-b922-93eee325cc14"/>
    <resource>
      <Organization>
        <id value="c1a98d0c-802b-4cce-b922-93eee325cc14"/>
        <identifier>
          <system value="urn:oid:2.51.1.3"/>
          <value value="7601000201041"/>
        </identifier>
        <name value="Dr. med. Always Ready, Group practice CH"/>
      </Organization>
    </resource>
  </entry>
  <entry>
    <fullUrl value="urn:uuid:5e5d0948-61b0-4555-9a8f-40bacdc0cb8c"/>
    <resource>
      <Practitioner>
        <id value="5e5d0948-61b0-4555-9a8f-40bacdc0cb8c"/>
        <identifier>
          <system value="urn:oid:2.51.1.3"/>
          <value value="7601000201041"/>
        </identifier>
        <name>
          <use value="official"/>
          <family value="Ready"/>
          <given value="Always"/>
          <prefix value="Dr. med."/>
          <suffix value="General practitioner"/>
        </name>
      </Practitioner>
    </resource>
  </entry>
  <entry>
    <fullUrl value="urn:uuid:74f3642a-835f-407a-a427-5e403fe8b0b3"/>
    <resource>
      <Organization>
        <id value="74f3642a-835f-407a-a427-5e403fe8b0b3"/>
        <identifier>
          <system value="urn:oid:2.51.1.3"/>
          <value value="7601000201041"/>
        </identifier>
        <name value="Group practice CH"/>
        <telecom>
          <system value="phone"/>
          <value value="+41.32.234.55.66"/>
          <use value="work"/>
        </telecom>
        <telecom>
          <system value="fax"/>
          <value value="+41.32.234.66.77"/>
          <use value="work"/>
        </telecom>
        <telecom>
          <system value="email"/>
          <value value="ready@gruppenpraxis.ch"/>
          <use value="work"/>
        </telecom>
        <telecom>
          <system value="url"/>
          <value value="www.grouppractice.ch"/>
          <use value="work"/>
        </telecom>
        <address>
          <use value="work"/>
          <line value="doctors street"/>
          <line value="2"/>
          <city value="Samplecity"/>
          <postalCode value="8888"/>
          <country value="CH"/>
        </address>
      </Organization>
    </resource>
  </entry>
  <entry>
    <fullUrl value="urn:uuid:7347db10-d4b3-4cc4-be86-dc2224fdf030"/>
    <resource>
      <Practitioner>
        <id value="7347db10-d4b3-4cc4-be86-dc2224fdf030"/>
        <identifier>
          <system value="urn:oid:2.51.1.3"/>
          <value value="7601000201041"/>
        </identifier>
        <name>
          <use value="official"/>
          <family value="Ready"/>
          <given value="Always"/>
          <prefix value="Dr. med."/>
          <suffix value="General practitioner"/>
        </name>
      </Practitioner>
    </resource>
  </entry>
  <entry>
    <fullUrl value="urn:uuid:28c3d63b-47d4-4f5f-9bbe-afd3a19cefc2"/>
    <resource>
      <Organization>
        <id value="28c3d63b-47d4-4f5f-9bbe-afd3a19cefc2"/>
        <identifier>
          <system value="urn:oid:2.51.1.3"/>
          <value value="7601000201041"/>
        </identifier>
        <name value="Group practice CH, Dr. med. Always Ready, General practitioner"/>
        <address>
          <use value="work"/>
          <line value="Doctors street"/>
          <line value="2"/>
          <city value="Samplecity"/>
          <postalCode value="8888"/>
          <country value="CH"/>
        </address>
      </Organization>
    </resource>
  </entry>
  <entry>
    <fullUrl value="urn:uuid:e118f753-caaa-4696-991a-b20a796ce782"/>
    <resource>
      <Organization>
        <id value="e118f753-caaa-4696-991a-b20a796ce782"/>
        <identifier> <!-- im CDA ist kein identifier vorhanden -->
          <system value="urn:oid:2.51.1.3"/>
          <value value="7601000618627"/>
        </identifier>
        <name value="RoDiag Radiology Institute"/>
        <address>
          <use value="work"/>
          <line value="Raystreet"/>
          <line value="1"/>
          <city value="Samplecity"/>
          <postalCode value="8888"/>
          <country value="CH"/>
        </address>
      </Organization>
    </resource>
  </entry>
  <entry>
    <fullUrl value="urn:uuid:cac33923-b081-4060-bd57-46ee35dd5a33"/>
    <resource>
      <PractitionerRole>
        <id value="cac33923-b081-4060-bd57-46ee35dd5a33"/>
        <practitioner>
          <reference value="urn:uuid:be3ba855-6bef-4c36-92a1-8b76fefd3629"/>
          <type value="Practitioner"/>
        </practitioner>
      </PractitionerRole>
    </resource>
  </entry>
  <entry>
    <fullUrl value="urn:uuid:be3ba855-6bef-4c36-92a1-8b76fefd3629"/>
    <resource>
      <Practitioner>
        <id value="be3ba855-6bef-4c36-92a1-8b76fefd3629"/>
        <identifier>
          <system value="urn:oid:2.999.1.2.3.4"/>
          <value value="0812763"/>
        </identifier>
        <name>
          <use value="official"/>
          <family value="Kristin"/>
          <given value="Stabilo"/>
        </name>
      </Practitioner>
    </resource>
  </entry>
  <entry id="8f304c87-ed20-4e9a-b928-db4116eb6594">
    <fullUrl value="urn:uuid:8f304c87-ed20-4e9a-b928-db4116eb6594"/>
    <resource>
      <Binary>
        <id value="8f304c87-ed20-4e9a-b928-db4116eb6594"/>
        <language value="en-US"/>
        <contentType value="application/pdf"/>
        <data value=""/>
      </Binary>
    </resource>
  </entry>
</Bundle>